{
  "resourceType" : "Bundle",
  "id" : "AllOfCarlFrederickson",
  "type" : "collection",
  "entry" : [{
    "fullUrl" : "http://example.org/fhir/Patient/CarlFrederickson",
    "resource" : {
      "resourceType" : "Patient",
      "id" : "CarlFrederickson",
      "text" : {
        "status" : "generated",
        "div" : "<div xmlns=\"http://www.w3.org/1999/xhtml\"><a name=\"Patient_CarlFrederickson\"> </a><p class=\"res-header-id\"><b>Generated Narrative: Patient CarlFrederickson</b></p><a name=\"CarlFrederickson\"> </a><a name=\"hcCarlFrederickson\"> </a><p style=\"border: 1px #661aff solid; background-color: #e6e6ff; padding: 10px;\">Carl Frederickson  Male, DoB: 1949-09-12</p><hr/><table class=\"grid\"><tr><td style=\"background-color: #f3f5da\" title=\"Known Marital status of Patient\">Marital Status:</td><td colspan=\"3\"><span title=\"Codes:{http://terminology.hl7.org/CodeSystem/v3-MaritalStatus M}\">Married</span></td></tr><tr><td style=\"background-color: #f3f5da\" title=\"Nominated Contact: Emergency Contact\">Emergency Contact:</td><td colspan=\"3\"><ul><li>Ellie Frederickson </li></ul></td></tr></table></div>"
      },
      "name" : [{
        "family" : "Frederickson",
        "given" : ["Carl"]
      }],
      "gender" : "male",
      "birthDate" : "1949-09-12",
      "maritalStatus" : {
        "coding" : [{
          "system" : "http://terminology.hl7.org/CodeSystem/v3-MaritalStatus",
          "code" : "M",
          "display" : "Married"
        }]
      },
      "contact" : [{
        "relationship" : [{
          "coding" : [{
            "system" : "http://terminology.hl7.org/CodeSystem/v2-0131",
            "code" : "C",
            "display" : "Emergency Contact"
          }]
        }],
        "name" : {
          "family" : "Frederickson",
          "given" : ["Ellie"]
        }
      }]
    }
  },
  {
    "fullUrl" : "http://example.org/fhir/CareTeam/CarlFredericksonCareTeam",
    "resource" : {
      "resourceType" : "CareTeam",
      "id" : "CarlFredericksonCareTeam",
      "text" : {
        "status" : "extensions",
        "div" : "<div xmlns=\"http://www.w3.org/1999/xhtml\"><a name=\"CareTeam_CarlFredericksonCareTeam\"> </a><p class=\"res-header-id\"><b>Generated Narrative: CareTeam CarlFredericksonCareTeam</b></p><a name=\"CarlFredericksonCareTeam\"> </a><a name=\"hcCarlFredericksonCareTeam\"> </a><p><b>identifier</b>: <code>http://example.org/demo/careteam-identifier</code>/CT-34567</p><p><b>status</b>: Active</p><p><b>category</b>: <span title=\"Codes:{http://loinc.org LA27976-2}\">Encounter-focused care team</span></p><p><b>name</b>: Carl Frederickson's Care Team</p><p><b>subject</b>: <a href=\"Patient-CarlFrederickson.html\">Carl Frederickson  Male, DoB: 1949-09-12</a></p><p><b>period</b>: 2023-01-15 --&gt; (ongoing)</p><blockquote><p><b>participant</b></p><p><b>role</b>: <span title=\"Codes:{http://snomed.info/sct 446050000}\">Primary care provider</span></p><p><b>member</b>: Dr. Hibbert</p><p><b>onBehalfOf</b>: Springfield Medical Center</p><p><b>period</b>: 2020-03-15 --&gt; (ongoing)</p></blockquote><blockquote><p><b>participant</b></p><p><b>role</b>: <span title=\"Codes:{http://snomed.info/sct 309343006}\">Psychiatrist</span></p><p><b>member</b>: Dr. Funke</p><p><b>onBehalfOf</b>: Springfield Medical Center</p><p><b>period</b>: 2022-09-08 --&gt; (ongoing)</p></blockquote><blockquote><p><b>participant</b></p><p><b>role</b>: <span title=\"Codes:{http://snomed.info/sct 66288003}\">Psychotherapist</span></p><p><b>member</b>: Lucy van Pelt</p><p><b>onBehalfOf</b>: Springfield Medical Center</p><p><b>period</b>: 2022-10-12 --&gt; (ongoing)</p></blockquote><blockquote><p><b>participant</b></p><p><b>42 CFR Part 2 Extension</b>: true</p><p><b>role</b>: <span title=\"Codes:{http://snomed.info/sct 309343006}\">Psychiatrist</span></p><p><b>member</b>: Dr. White</p><p><b>onBehalfOf</b>: Springfield Medical Center Addiction Treatment Program</p><p><b>period</b>: 2022-06-30 --&gt; (ongoing)</p></blockquote><blockquote><p><b>participant</b></p><p><b>role</b>: <span title=\"Codes:{http://snomed.info/sct 159034004}\">Podiatrist</span></p><p><b>member</b>: Dr. Sasquatch</p><p><b>onBehalfOf</b>: Orthopedic Health Services</p><p><b>period</b>: 2023-02-25 --&gt; (ongoing)</p></blockquote><blockquote><p><b>participant</b></p><p><b>role</b>: <span title=\"Codes:{http://snomed.info/sct 158970007}\">Anesthesiologist</span></p><p><b>member</b>: Dr. Aurora</p><p><b>onBehalfOf</b>: Orthopedic Health Services</p><p><b>period</b>: 2023-05-15 --&gt; (ongoing)</p></blockquote><blockquote><p><b>participant</b></p><p><b>role</b>: <span title=\"Codes:{http://snomed.info/sct 66862007}\">Radiologist</span></p><p><b>member</b>: Dr. Banner</p><p><b>onBehalfOf</b>: Regional Advanced Diagnostic Services</p><p><b>period</b>: 2023-03-10 --&gt; (ongoing)</p></blockquote><blockquote><p><b>participant</b></p><p><b>role</b>: <span title=\"Codes:{http://snomed.info/sct 224546007}\">ICN - Infection control nurse</span></p><p><b>member</b>: ACO Care Manager</p><p><b>onBehalfOf</b>: Springfield ACO</p><p><b>period</b>: 2022-01-01 --&gt; (ongoing)</p></blockquote><p><b>reasonCode</b>: <span title=\"Codes:{http://snomed.info/sct 386661006}\">Multidisciplinary care</span></p><p><b>managingOrganization</b>: Springfield Medical Center</p><p><b>note</b>: By Dr. Hibbert @2023-05-10 14:00:00+0000</p><blockquote><div><p>Monthly care coordination meetings scheduled to coordinate care across behavioral health, primary care, and specialty services. Substance use treatment protected under 42 CFR Part 2.</p>\n</div></blockquote></div>"
      },
      "identifier" : [{
        "system" : "http://example.org/demo/careteam-identifier",
        "value" : "CT-34567"
      }],
      "status" : "active",
      "category" : [{
        "coding" : [{
          "system" : "http://loinc.org",
          "code" : "LA27976-2",
          "display" : "Encounter-focused care team"
        }]
      }],
      "name" : "Carl Frederickson's Care Team",
      "subject" : {
        "reference" : "Patient/CarlFrederickson"
      },
      "period" : {
        "start" : "2023-01-15"
      },
      "participant" : [{
        "role" : [{
          "coding" : [{
            "system" : "http://snomed.info/sct",
            "code" : "446050000",
            "display" : "Primary care physician"
          }],
          "text" : "Primary care provider"
        }],
        "member" : {
          "display" : "Dr. Hibbert"
        },
        "onBehalfOf" : {
          "display" : "Springfield Medical Center"
        },
        "period" : {
          "start" : "2020-03-15"
        }
      },
      {
        "role" : [{
          "coding" : [{
            "system" : "http://snomed.info/sct",
            "code" : "309343006",
            "display" : "Physician"
          }],
          "text" : "Psychiatrist"
        }],
        "member" : {
          "display" : "Dr. Funke"
        },
        "onBehalfOf" : {
          "display" : "Springfield Medical Center"
        },
        "period" : {
          "start" : "2022-09-08"
        }
      },
      {
        "role" : [{
          "coding" : [{
            "system" : "http://snomed.info/sct",
            "code" : "66288003",
            "display" : "Skin of infraclavicular region"
          }],
          "text" : "Psychotherapist"
        }],
        "member" : {
          "display" : "Lucy van Pelt"
        },
        "onBehalfOf" : {
          "display" : "Springfield Medical Center"
        },
        "period" : {
          "start" : "2022-10-12"
        }
      },
      {
        "extension" : [{
          "url" : "http://SHIFT-Task-Force.github.io/demo-fhir-data/StructureDefinition/42CFRPart2",
          "valueBoolean" : true
        }],
        "role" : [{
          "coding" : [{
            "system" : "http://snomed.info/sct",
            "code" : "309343006",
            "display" : "Physician"
          }],
          "text" : "Psychiatrist"
        }],
        "member" : {
          "display" : "Dr. White"
        },
        "onBehalfOf" : {
          "display" : "Springfield Medical Center Addiction Treatment Program"
        },
        "period" : {
          "start" : "2022-06-30"
        }
      },
      {
        "role" : [{
          "coding" : [{
            "system" : "http://snomed.info/sct",
            "code" : "159034004",
            "display" : "Podiatrist"
          }]
        }],
        "member" : {
          "display" : "Dr. Sasquatch"
        },
        "onBehalfOf" : {
          "display" : "Orthopedic Health Services"
        },
        "period" : {
          "start" : "2023-02-25"
        }
      },
      {
        "role" : [{
          "coding" : [{
            "system" : "http://snomed.info/sct",
            "code" : "158970007",
            "display" : "Anaesthetist"
          }],
          "text" : "Anesthesiologist"
        }],
        "member" : {
          "display" : "Dr. Aurora"
        },
        "onBehalfOf" : {
          "display" : "Orthopedic Health Services"
        },
        "period" : {
          "start" : "2023-05-15"
        }
      },
      {
        "role" : [{
          "coding" : [{
            "system" : "http://snomed.info/sct",
            "code" : "66862007",
            "display" : "Radiologist"
          }]
        }],
        "member" : {
          "display" : "Dr. Banner"
        },
        "onBehalfOf" : {
          "display" : "Regional Advanced Diagnostic Services"
        },
        "period" : {
          "start" : "2023-03-10"
        }
      },
      {
        "role" : [{
          "coding" : [{
            "system" : "http://snomed.info/sct",
            "code" : "224546007",
            "display" : "ICN - Infection control nurse"
          }]
        }],
        "member" : {
          "display" : "ACO Care Manager"
        },
        "onBehalfOf" : {
          "display" : "Springfield ACO"
        },
        "period" : {
          "start" : "2022-01-01"
        }
      }],
      "reasonCode" : [{
        "coding" : [{
          "system" : "http://snomed.info/sct",
          "code" : "386661006",
          "display" : "Fever (finding)"
        }],
        "text" : "Multidisciplinary care"
      }],
      "managingOrganization" : [{
        "display" : "Springfield Medical Center"
      }],
      "note" : [{
        "authorString" : "Dr. Hibbert",
        "time" : "2023-05-10T14:00:00Z",
        "text" : "Monthly care coordination meetings scheduled to coordinate care across behavioral health, primary care, and specialty services. Substance use treatment protected under 42 CFR Part 2."
      }]
    }
  },
  {
    "fullUrl" : "http://example.org/fhir/Observation/CarlFredericksonPHQ9",
    "resource" : {
      "resourceType" : "Observation",
      "id" : "CarlFredericksonPHQ9",
      "meta" : {
        "profile" : ["http://SHIFT-Task-Force.github.io/demo-fhir-data/StructureDefinition/sensitive-observation-profile"]
      },
      "text" : {
        "status" : "generated",
        "div" : "<div xmlns=\"http://www.w3.org/1999/xhtml\"><a name=\"Observation_CarlFredericksonPHQ9\"> </a><p class=\"res-header-id\"><b>Generated Narrative: Observation CarlFredericksonPHQ9</b></p><a name=\"CarlFredericksonPHQ9\"> </a><a name=\"hcCarlFredericksonPHQ9\"> </a><div style=\"display: inline-block; background-color: #d9e0e7; padding: 6px; margin: 4px; border: 1px solid #8da1b4; border-radius: 5px; line-height: 60%\"><p style=\"margin-bottom: 0px\"/><p style=\"margin-bottom: 0px\">Profile: <a href=\"StructureDefinition-sensitive-observation-profile.html\">Sensitive Observation Profile</a></p></div><p><b>identifier</b>: <code>http://example.com/demo/observation-identifier</code>/PHQ9-56781</p><p><b>status</b>: Final</p><p><b>code</b>: <span title=\"Codes:{http://snomed.info/sct 720433000}\">Mapple Screening - PHQ-9 depression assessment</span></p><p><b>subject</b>: <a href=\"Patient-CarlFrederickson.html\">Carl Frederickson  Male, DoB: 1949-09-12</a></p><p><b>focus</b>: <a href=\"Observation-CarlFredericksonPHQ9A.html\">Observation Brief emotional/behavioral assessment (eg, depression inventory, attention-deficit/hyperactivity disorder [ADHD] scale), with scoring and documentation, per standardized instrument</a></p><p><b>effective</b>: 2023-08-12 14:30:00+0000</p><p><b>performer</b>: Lucy van Pelt</p><p><b>value</b>: 15</p></div>"
      },
      "identifier" : [{
        "system" : "http://example.com/demo/observation-identifier",
        "value" : "PHQ9-56781"
      }],
      "status" : "final",
      "code" : {
        "coding" : [{
          "system" : "http://snomed.info/sct",
          "code" : "720433000",
          "display" : "Patient Health Questionnaire Nine Item score (observable entity)"
        }],
        "text" : "Mapple Screening - PHQ-9 depression assessment"
      },
      "subject" : {
        "reference" : "Patient/CarlFrederickson"
      },
      "focus" : [{
        "reference" : "Observation/CarlFredericksonPHQ9A"
      }],
      "effectiveDateTime" : "2023-08-12T14:30:00Z",
      "performer" : [{
        "display" : "Lucy van Pelt"
      }],
      "valueInteger" : 15
    }
  },
  {
    "fullUrl" : "http://example.org/fhir/Observation/CarlFredericksonPHQ9A",
    "resource" : {
      "resourceType" : "Observation",
      "id" : "CarlFredericksonPHQ9A",
      "meta" : {
        "profile" : ["http://SHIFT-Task-Force.github.io/demo-fhir-data/StructureDefinition/sensitive-observation-profile"]
      },
      "text" : {
        "status" : "generated",
        "div" : "<div xmlns=\"http://www.w3.org/1999/xhtml\"><a name=\"Observation_CarlFredericksonPHQ9A\"> </a><p class=\"res-header-id\"><b>Generated Narrative: Observation CarlFredericksonPHQ9A</b></p><a name=\"CarlFredericksonPHQ9A\"> </a><a name=\"hcCarlFredericksonPHQ9A\"> </a><div style=\"display: inline-block; background-color: #d9e0e7; padding: 6px; margin: 4px; border: 1px solid #8da1b4; border-radius: 5px; line-height: 60%\"><p style=\"margin-bottom: 0px\"/><p style=\"margin-bottom: 0px\">Profile: <a href=\"StructureDefinition-sensitive-observation-profile.html\">Sensitive Observation Profile</a></p></div><p><b>identifier</b>: <code>http://example.com/demo/observation-identifier</code>/PHQ9-56781_A</p><p><b>status</b>: Final</p><p><b>code</b>: <span title=\"Codes:{http://www.ama-assn.org/go/cpt 96127}\">Brief emotional/behavioral assessment (eg, depression inventory, attention-deficit/hyperactivity disorder [ADHD] scale), with scoring and documentation, per standardized instrument</span></p><p><b>subject</b>: <a href=\"Patient-CarlFrederickson.html\">Carl Frederickson  Male, DoB: 1949-09-12</a></p><p><b>effective</b>: 2023-08-12 14:30:00+0000</p><p><b>performer</b>: Lucy van Pelt</p><p><b>value</b>: Brief emotional/behavioral assessment - CPT 96127 (not billed)</p></div>"
      },
      "identifier" : [{
        "system" : "http://example.com/demo/observation-identifier",
        "value" : "PHQ9-56781_A"
      }],
      "status" : "final",
      "code" : {
        "coding" : [{
          "system" : "http://www.ama-assn.org/go/cpt",
          "code" : "96127",
          "display" : "Brief emotional/behavioral assessment (eg, depression inventory, attention-deficit/hyperactivity disorder [ADHD] scale), with scoring and documentation, per standardized instrument"
        }]
      },
      "subject" : {
        "reference" : "Patient/CarlFrederickson"
      },
      "effectiveDateTime" : "2023-08-12T14:30:00Z",
      "performer" : [{
        "display" : "Lucy van Pelt"
      }],
      "valueString" : "Brief emotional/behavioral assessment - CPT 96127 (not billed)"
    }
  },
  {
    "fullUrl" : "http://example.org/fhir/Condition/CarlFredericksonBunions",
    "resource" : {
      "resourceType" : "Condition",
      "id" : "CarlFredericksonBunions",
      "text" : {
        "status" : "generated",
        "div" : "<div xmlns=\"http://www.w3.org/1999/xhtml\"><a name=\"Condition_CarlFredericksonBunions\"> </a><p class=\"res-header-id\"><b>Generated Narrative: Condition CarlFredericksonBunions</b></p><a name=\"CarlFredericksonBunions\"> </a><a name=\"hcCarlFredericksonBunions\"> </a><p><b>identifier</b>: <code>http://example.com/demo/condition-identifier</code>/BUNIONS-12347</p><p><b>clinicalStatus</b>: <span title=\"Codes:{http://terminology.hl7.org/CodeSystem/condition-clinical active}\">Active</span></p><p><b>category</b>: <span title=\"Codes:{http://terminology.hl7.org/CodeSystem/condition-category problem-list-item}\">Problem List Item</span></p><p><b>code</b>: <span title=\"Codes:{http://hl7.org/fhir/sid/icd-10-cm M20.10}, {http://snomed.info/sct 415692008}\">Bunions, bilateral</span></p><p><b>subject</b>: <a href=\"Patient-CarlFrederickson.html\">Carl Frederickson  Male, DoB: 1949-09-12</a></p></div>"
      },
      "identifier" : [{
        "system" : "http://example.com/demo/condition-identifier",
        "value" : "BUNIONS-12347"
      }],
      "clinicalStatus" : {
        "coding" : [{
          "system" : "http://terminology.hl7.org/CodeSystem/condition-clinical",
          "code" : "active"
        }]
      },
      "category" : [{
        "coding" : [{
          "system" : "http://terminology.hl7.org/CodeSystem/condition-category",
          "code" : "problem-list-item"
        }]
      }],
      "code" : {
        "coding" : [{
          "system" : "http://hl7.org/fhir/sid/icd-10-cm",
          "code" : "M20.10",
          "display" : "Hallux valgus (acquired), unspecified foot"
        },
        {
          "system" : "http://snomed.info/sct",
          "code" : "415692008",
          "display" : "Swelling of first metatarsophalangeal joint of hallux (disorder)"
        }],
        "text" : "Bunions, bilateral"
      },
      "subject" : {
        "reference" : "Patient/CarlFrederickson"
      }
    }
  },
  {
    "fullUrl" : "http://example.org/fhir/Condition/CarlFredericksonHTN",
    "resource" : {
      "resourceType" : "Condition",
      "id" : "CarlFredericksonHTN",
      "text" : {
        "status" : "generated",
        "div" : "<div xmlns=\"http://www.w3.org/1999/xhtml\"><a name=\"Condition_CarlFredericksonHTN\"> </a><p class=\"res-header-id\"><b>Generated Narrative: Condition CarlFredericksonHTN</b></p><a name=\"CarlFredericksonHTN\"> </a><a name=\"hcCarlFredericksonHTN\"> </a><p><b>identifier</b>: <code>http://example.com/demo/condition-identifier</code>/HTN-12346</p><p><b>clinicalStatus</b>: <span title=\"Codes:{http://terminology.hl7.org/CodeSystem/condition-clinical active}\">Active</span></p><p><b>category</b>: <span title=\"Codes:{http://terminology.hl7.org/CodeSystem/condition-category problem-list-item}\">Problem List Item</span></p><p><b>code</b>: <span title=\"Codes:{http://hl7.org/fhir/sid/icd-10 I10}, {http://snomed.info/sct 59621000}\">Essential hypertension</span></p><p><b>subject</b>: <a href=\"Patient-CarlFrederickson.html\">Carl Frederickson  Male, DoB: 1949-09-12</a></p></div>"
      },
      "identifier" : [{
        "system" : "http://example.com/demo/condition-identifier",
        "value" : "HTN-12346"
      }],
      "clinicalStatus" : {
        "coding" : [{
          "system" : "http://terminology.hl7.org/CodeSystem/condition-clinical",
          "code" : "active"
        }]
      },
      "category" : [{
        "coding" : [{
          "system" : "http://terminology.hl7.org/CodeSystem/condition-category",
          "code" : "problem-list-item"
        }]
      }],
      "code" : {
        "coding" : [{
          "system" : "http://hl7.org/fhir/sid/icd-10",
          "code" : "I10",
          "display" : "Essential (primary) hypertension"
        },
        {
          "system" : "http://snomed.info/sct",
          "code" : "59621000",
          "display" : "Essential hypertension (disorder)"
        }],
        "text" : "Essential hypertension"
      },
      "subject" : {
        "reference" : "Patient/CarlFrederickson"
      }
    }
  },
  {
    "fullUrl" : "http://example.org/fhir/Condition/CarlFredericksonMDD",
    "resource" : {
      "resourceType" : "Condition",
      "id" : "CarlFredericksonMDD",
      "meta" : {
        "profile" : ["http://SHIFT-Task-Force.github.io/demo-fhir-data/StructureDefinition/sensitive-condition-profile"]
      },
      "text" : {
        "status" : "generated",
        "div" : "<div xmlns=\"http://www.w3.org/1999/xhtml\"><a name=\"Condition_CarlFredericksonMDD\"> </a><p class=\"res-header-id\"><b>Generated Narrative: Condition CarlFredericksonMDD</b></p><a name=\"CarlFredericksonMDD\"> </a><a name=\"hcCarlFredericksonMDD\"> </a><div style=\"display: inline-block; background-color: #d9e0e7; padding: 6px; margin: 4px; border: 1px solid #8da1b4; border-radius: 5px; line-height: 60%\"><p style=\"margin-bottom: 0px\"/><p style=\"margin-bottom: 0px\">Profile: <a href=\"StructureDefinition-sensitive-condition-profile.html\">Informative Sensitive Condition Profile</a></p></div><p><b>identifier</b>: <code>http://example.com/demo/condition-identifier</code>/MDD-12349</p><p><b>clinicalStatus</b>: <span title=\"Codes:{http://terminology.hl7.org/CodeSystem/condition-clinical active}\">Active</span></p><p><b>category</b>: <span title=\"Codes:{http://terminology.hl7.org/CodeSystem/condition-category problem-list-item}\">Problem List Item</span>, <span title=\"Codes:{http://terminology.hl7.org/CodeSystem/condition-category encounter-diagnosis}\">Encounter Diagnosis</span></p><p><b>code</b>: <span title=\"Codes:{http://hl7.org/fhir/sid/icd-10-cm F33.1}, {http://snomed.info/sct 310496002}\">Major depressive disorder, recurrent, moderate</span></p><p><b>subject</b>: <a href=\"Patient-CarlFrederickson.html\">Carl Frederickson  Male, DoB: 1949-09-12</a></p></div>"
      },
      "identifier" : [{
        "system" : "http://example.com/demo/condition-identifier",
        "value" : "MDD-12349"
      }],
      "clinicalStatus" : {
        "coding" : [{
          "system" : "http://terminology.hl7.org/CodeSystem/condition-clinical",
          "code" : "active"
        }]
      },
      "category" : [{
        "coding" : [{
          "system" : "http://terminology.hl7.org/CodeSystem/condition-category",
          "code" : "problem-list-item"
        }]
      },
      {
        "coding" : [{
          "system" : "http://terminology.hl7.org/CodeSystem/condition-category",
          "code" : "encounter-diagnosis"
        }]
      }],
      "code" : {
        "coding" : [{
          "system" : "http://hl7.org/fhir/sid/icd-10-cm",
          "code" : "F33.1",
          "display" : "Major depressive disorder, recurrent, moderate"
        },
        {
          "system" : "http://snomed.info/sct",
          "code" : "310496002",
          "display" : "Moderate depression"
        }],
        "text" : "Major depressive disorder, recurrent, moderate"
      },
      "subject" : {
        "reference" : "Patient/CarlFrederickson"
      }
    }
  },
  {
    "fullUrl" : "http://example.org/fhir/Condition/CarlFredericksonOCPD",
    "resource" : {
      "resourceType" : "Condition",
      "id" : "CarlFredericksonOCPD",
      "meta" : {
        "profile" : ["http://SHIFT-Task-Force.github.io/demo-fhir-data/StructureDefinition/sensitive-condition-profile"]
      },
      "text" : {
        "status" : "generated",
        "div" : "<div xmlns=\"http://www.w3.org/1999/xhtml\"><a name=\"Condition_CarlFredericksonOCPD\"> </a><p class=\"res-header-id\"><b>Generated Narrative: Condition CarlFredericksonOCPD</b></p><a name=\"CarlFredericksonOCPD\"> </a><a name=\"hcCarlFredericksonOCPD\"> </a><div style=\"display: inline-block; background-color: #d9e0e7; padding: 6px; margin: 4px; border: 1px solid #8da1b4; border-radius: 5px; line-height: 60%\"><p style=\"margin-bottom: 0px\"/><p style=\"margin-bottom: 0px\">Profile: <a href=\"StructureDefinition-sensitive-condition-profile.html\">Informative Sensitive Condition Profile</a></p></div><p><b>identifier</b>: <code>http://example.com/demo/condition-identifier</code>/OCPD-12348</p><p><b>clinicalStatus</b>: <span title=\"Codes:{http://terminology.hl7.org/CodeSystem/condition-clinical active}\">Active</span></p><p><b>category</b>: <span title=\"Codes:{http://terminology.hl7.org/CodeSystem/condition-category problem-list-item}\">Problem List Item</span>, <span title=\"Codes:{http://terminology.hl7.org/CodeSystem/condition-category encounter-diagnosis}\">Encounter Diagnosis</span></p><p><b>code</b>: <span title=\"Codes:{http://hl7.org/fhir/sid/icd-10-cm F60.5}, {http://snomed.info/sct 1376001}\">Obsessive-compulsive personality disorder</span></p><p><b>subject</b>: <a href=\"Patient-CarlFrederickson.html\">Carl Frederickson  Male, DoB: 1949-09-12</a></p></div>"
      },
      "identifier" : [{
        "system" : "http://example.com/demo/condition-identifier",
        "value" : "OCPD-12348"
      }],
      "clinicalStatus" : {
        "coding" : [{
          "system" : "http://terminology.hl7.org/CodeSystem/condition-clinical",
          "code" : "active"
        }]
      },
      "category" : [{
        "coding" : [{
          "system" : "http://terminology.hl7.org/CodeSystem/condition-category",
          "code" : "problem-list-item"
        }]
      },
      {
        "coding" : [{
          "system" : "http://terminology.hl7.org/CodeSystem/condition-category",
          "code" : "encounter-diagnosis"
        }]
      }],
      "code" : {
        "coding" : [{
          "system" : "http://hl7.org/fhir/sid/icd-10-cm",
          "code" : "F60.5",
          "display" : "Obsessive-compulsive personality disorder"
        },
        {
          "system" : "http://snomed.info/sct",
          "code" : "1376001",
          "display" : "Obsessive compulsive personality disorder"
        }],
        "text" : "Obsessive-compulsive personality disorder"
      },
      "subject" : {
        "reference" : "Patient/CarlFrederickson"
      }
    }
  },
  {
    "fullUrl" : "http://example.org/fhir/Condition/CarlFredericksonOUD",
    "resource" : {
      "resourceType" : "Condition",
      "id" : "CarlFredericksonOUD",
      "meta" : {
        "profile" : ["http://SHIFT-Task-Force.github.io/demo-fhir-data/StructureDefinition/sensitive-condition-profile"]
      },
      "text" : {
        "status" : "generated",
        "div" : "<div xmlns=\"http://www.w3.org/1999/xhtml\"><a name=\"Condition_CarlFredericksonOUD\"> </a><p class=\"res-header-id\"><b>Generated Narrative: Condition CarlFredericksonOUD</b></p><a name=\"CarlFredericksonOUD\"> </a><a name=\"hcCarlFredericksonOUD\"> </a><div style=\"display: inline-block; background-color: #d9e0e7; padding: 6px; margin: 4px; border: 1px solid #8da1b4; border-radius: 5px; line-height: 60%\"><p style=\"margin-bottom: 0px\"/><p style=\"margin-bottom: 0px\">Profile: <a href=\"StructureDefinition-sensitive-condition-profile.html\">Informative Sensitive Condition Profile</a></p></div><p><b>identifier</b>: <code>http://example.com/demo/condition-identifier</code>/OUD-12345</p><p><b>clinicalStatus</b>: <span title=\"Codes:{http://terminology.hl7.org/CodeSystem/condition-clinical active}\">Active</span></p><p><b>category</b>: <span title=\"Codes:{http://terminology.hl7.org/CodeSystem/condition-category problem-list-item}\">Problem List Item</span>, <span title=\"Codes:{http://terminology.hl7.org/CodeSystem/condition-category encounter-diagnosis}\">Encounter Diagnosis</span></p><p><b>code</b>: <span title=\"Codes:{http://hl7.org/fhir/sid/icd-10-cm F11.11}, {http://snomed.info/sct 5602001}\">Opioid abuse, in remission</span></p><p><b>subject</b>: <a href=\"Patient-CarlFrederickson.html\">Carl Frederickson  Male, DoB: 1949-09-12</a></p><p><b>recordedDate</b>: 2025-04-06</p></div>"
      },
      "identifier" : [{
        "system" : "http://example.com/demo/condition-identifier",
        "value" : "OUD-12345"
      }],
      "clinicalStatus" : {
        "coding" : [{
          "system" : "http://terminology.hl7.org/CodeSystem/condition-clinical",
          "code" : "active"
        }]
      },
      "category" : [{
        "coding" : [{
          "system" : "http://terminology.hl7.org/CodeSystem/condition-category",
          "code" : "problem-list-item"
        }]
      },
      {
        "coding" : [{
          "system" : "http://terminology.hl7.org/CodeSystem/condition-category",
          "code" : "encounter-diagnosis"
        }]
      }],
      "code" : {
        "coding" : [{
          "system" : "http://hl7.org/fhir/sid/icd-10-cm",
          "code" : "F11.11",
          "display" : "Opioid abuse, in remission"
        },
        {
          "system" : "http://snomed.info/sct",
          "code" : "5602001",
          "display" : "Opioid abuse"
        }],
        "text" : "Opioid abuse, in remission"
      },
      "subject" : {
        "reference" : "Patient/CarlFrederickson"
      },
      "recordedDate" : "2025-04-06"
    }
  },
  {
    "fullUrl" : "http://example.org/fhir/DiagnosticReport/CarlFredericksonXrayFeet",
    "resource" : {
      "resourceType" : "DiagnosticReport",
      "id" : "CarlFredericksonXrayFeet",
      "text" : {
        "status" : "generated",
        "div" : "<div xmlns=\"http://www.w3.org/1999/xhtml\"><a name=\"DiagnosticReport_CarlFredericksonXrayFeet\"> </a><p class=\"res-header-id\"><b>Generated Narrative: DiagnosticReport CarlFredericksonXrayFeet</b></p><a name=\"CarlFredericksonXrayFeet\"> </a><a name=\"hcCarlFredericksonXrayFeet\"> </a><h2><span title=\"Codes:{http://www.ama-assn.org/go/cpt 73620}\">X-ray, bilateral feet, weightbearing, 2 views: dorsoplantar (DP) and axial</span> (<span title=\"Codes:{http://terminology.hl7.org/CodeSystem/v2-0074 RAD}\">Radiology</span>) </h2><table class=\"grid\"><tr><td>Subject</td><td>Carl Frederickson  Male, DoB: 1949-09-12</td></tr><tr><td>When For</td><td>2022-11-15 10:30:00+0000</td></tr><tr><td>Reported</td><td>2022-11-15 14:45:00+0000</td></tr><tr><td>Performer</td><td> Dr. Robert Smith, Radiologist</td></tr><tr><td>Identifier</td><td> <code>http://example.com/demo/diagnosticreport-identifier</code>/XRAY-23456</td></tr></table><p><b>Report Details</b></p><p>Bilateral bunions with hallux valgus deformity, moderate degenerative changes in the first metatarsophalangeal joint bilaterally, more pronounced on the right.</p></div>"
      },
      "identifier" : [{
        "system" : "http://example.com/demo/diagnosticreport-identifier",
        "value" : "XRAY-23456"
      }],
      "status" : "final",
      "category" : [{
        "coding" : [{
          "system" : "http://terminology.hl7.org/CodeSystem/v2-0074",
          "code" : "RAD",
          "display" : "Radiology"
        }]
      }],
      "code" : {
        "coding" : [{
          "system" : "http://www.ama-assn.org/go/cpt",
          "code" : "73620",
          "display" : "Radiologic examination, foot; 2 views"
        }],
        "text" : "X-ray, bilateral feet, weightbearing, 2 views: dorsoplantar (DP) and axial"
      },
      "subject" : {
        "reference" : "Patient/CarlFrederickson"
      },
      "effectiveDateTime" : "2022-11-15T10:30:00Z",
      "issued" : "2022-11-15T14:45:00Z",
      "performer" : [{
        "display" : "Dr. Robert Smith, Radiologist"
      }],
      "conclusion" : "Bilateral bunions with hallux valgus deformity, moderate degenerative changes in the first metatarsophalangeal joint bilaterally, more pronounced on the right."
    }
  },
  {
    "fullUrl" : "http://example.org/fhir/MedicationRequest/CarlFredericksonBuprenorphineNaltrexone",
    "resource" : {
      "resourceType" : "MedicationRequest",
      "id" : "CarlFredericksonBuprenorphineNaltrexone",
      "meta" : {
        "profile" : ["http://SHIFT-Task-Force.github.io/demo-fhir-data/StructureDefinition/sensitive-medication-request-profile"]
      },
      "text" : {
        "status" : "generated",
        "div" : "<div xmlns=\"http://www.w3.org/1999/xhtml\"><a name=\"MedicationRequest_CarlFredericksonBuprenorphineNaltrexone\"> </a><p class=\"res-header-id\"><b>Generated Narrative: MedicationRequest CarlFredericksonBuprenorphineNaltrexone</b></p><a name=\"CarlFredericksonBuprenorphineNaltrexone\"> </a><a name=\"hcCarlFredericksonBuprenorphineNaltrexone\"> </a><div style=\"display: inline-block; background-color: #d9e0e7; padding: 6px; margin: 4px; border: 1px solid #8da1b4; border-radius: 5px; line-height: 60%\"><p style=\"margin-bottom: 0px\"/><p style=\"margin-bottom: 0px\">Profile: <a href=\"StructureDefinition-sensitive-medication-request-profile.html\">Sensitive Medication Request Profile</a></p></div><p><b>identifier</b>: <code>http://example.com/demo/medicationrequest-identifier</code>/RX-BUPNALTREX-45601</p><p><b>status</b>: Active</p><p><b>intent</b>: Order</p><p><b>medication</b>: <span title=\"Codes:{http://www.nlm.nih.gov/research/umls/rxnorm 352364}, {http://snomed.info/sct 425741009}\">Buprenorphine / Naltrexone</span></p><p><b>subject</b>: <a href=\"Patient-CarlFrederickson.html\">Carl Frederickson  Male, DoB: 1949-09-12</a></p><blockquote><p><b>dosageInstruction</b></p><p><b>text</b>: 8mg/2mg SL daily</p><p><b>timing</b>: Once per 1 day</p><p><b>route</b>: <span title=\"Codes:{http://snomed.info/sct 37839007}\">Sublingual route</span></p><h3>DoseAndRates</h3><table class=\"grid\"><tr><td style=\"display: none\">-</td><td><b>Dose[x]</b></td></tr><tr><td style=\"display: none\">*</td><td>1 tablet/day<span style=\"background: LightGoldenRodYellow\"> (Details: SNOMED CT  code428673006 = 'Tablet - unit of product usage (qualifier value)')</span></td></tr></table></blockquote></div>"
      },
      "identifier" : [{
        "system" : "http://example.com/demo/medicationrequest-identifier",
        "value" : "RX-BUPNALTREX-45601"
      }],
      "status" : "active",
      "intent" : "order",
      "medicationCodeableConcept" : {
        "coding" : [{
          "system" : "http://www.nlm.nih.gov/research/umls/rxnorm",
          "code" : "352364",
          "display" : "buprenorphine / naloxone"
        },
        {
          "system" : "http://snomed.info/sct",
          "code" : "425741009",
          "display" : "Product containing buprenorphine and naloxone (medicinal product)"
        }],
        "text" : "Buprenorphine / Naltrexone"
      },
      "subject" : {
        "reference" : "Patient/CarlFrederickson"
      },
      "dosageInstruction" : [{
        "text" : "8mg/2mg SL daily",
        "timing" : {
          "repeat" : {
            "frequency" : 1,
            "period" : 1,
            "periodUnit" : "d"
          }
        },
        "route" : {
          "coding" : [{
            "system" : "http://snomed.info/sct",
            "code" : "37839007",
            "display" : "Sublingual route"
          }]
        },
        "doseAndRate" : [{
          "doseQuantity" : {
            "value" : 1,
            "unit" : "tablet/day",
            "system" : "http://snomed.info/sct",
            "code" : "428673006"
          }
        }]
      }]
    }
  },
  {
    "fullUrl" : "http://example.org/fhir/MedicationRequest/CarlFredericksonCaptopril",
    "resource" : {
      "resourceType" : "MedicationRequest",
      "id" : "CarlFredericksonCaptopril",
      "text" : {
        "status" : "generated",
        "div" : "<div xmlns=\"http://www.w3.org/1999/xhtml\"><a name=\"MedicationRequest_CarlFredericksonCaptopril\"> </a><p class=\"res-header-id\"><b>Generated Narrative: MedicationRequest CarlFredericksonCaptopril</b></p><a name=\"CarlFredericksonCaptopril\"> </a><a name=\"hcCarlFredericksonCaptopril\"> </a><p><b>identifier</b>: <code>http://example.com/demo/medicationrequest-identifier</code>/RX-CAPTOPRIL-45603</p><p><b>status</b>: Active</p><p><b>intent</b>: Order</p><p><b>medication</b>: <span title=\"Codes:{http://www.nlm.nih.gov/research/umls/rxnorm 315560}\">Captopril 12.5 MG Oral Tablet</span></p><p><b>subject</b>: <a href=\"Patient-CarlFrederickson.html\">Carl Frederickson  Male, DoB: 1949-09-12</a></p><blockquote><p><b>dosageInstruction</b></p><p><b>text</b>: 12.5mg PO BID</p><p><b>timing</b>: 2 per 1 day</p><p><b>route</b>: <span title=\"Codes:{http://snomed.info/sct 26643006}\">Oral route</span></p><h3>DoseAndRates</h3><table class=\"grid\"><tr><td style=\"display: none\">-</td><td><b>Dose[x]</b></td></tr><tr><td style=\"display: none\">*</td><td>12.5 mg<span style=\"background: LightGoldenRodYellow\"> (Details: UCUM  codemg = 'mg')</span></td></tr></table></blockquote></div>"
      },
      "identifier" : [{
        "system" : "http://example.com/demo/medicationrequest-identifier",
        "value" : "RX-CAPTOPRIL-45603"
      }],
      "status" : "active",
      "intent" : "order",
      "medicationCodeableConcept" : {
        "coding" : [{
          "system" : "http://www.nlm.nih.gov/research/umls/rxnorm",
          "code" : "315560",
          "display" : "captopril 12.5 MG"
        }],
        "text" : "Captopril 12.5 MG Oral Tablet"
      },
      "subject" : {
        "reference" : "Patient/CarlFrederickson"
      },
      "dosageInstruction" : [{
        "text" : "12.5mg PO BID",
        "timing" : {
          "repeat" : {
            "frequency" : 2,
            "period" : 1,
            "periodUnit" : "d"
          }
        },
        "route" : {
          "coding" : [{
            "system" : "http://snomed.info/sct",
            "code" : "26643006",
            "display" : "Oral route"
          }]
        },
        "doseAndRate" : [{
          "doseQuantity" : {
            "value" : 12.5,
            "unit" : "mg",
            "system" : "http://unitsofmeasure.org",
            "code" : "mg"
          }
        }]
      }]
    }
  },
  {
    "fullUrl" : "http://example.org/fhir/MedicationRequest/CarlFredericksonFluoxetine",
    "resource" : {
      "resourceType" : "MedicationRequest",
      "id" : "CarlFredericksonFluoxetine",
      "meta" : {
        "profile" : ["http://SHIFT-Task-Force.github.io/demo-fhir-data/StructureDefinition/sensitive-medication-request-profile"]
      },
      "text" : {
        "status" : "generated",
        "div" : "<div xmlns=\"http://www.w3.org/1999/xhtml\"><a name=\"MedicationRequest_CarlFredericksonFluoxetine\"> </a><p class=\"res-header-id\"><b>Generated Narrative: MedicationRequest CarlFredericksonFluoxetine</b></p><a name=\"CarlFredericksonFluoxetine\"> </a><a name=\"hcCarlFredericksonFluoxetine\"> </a><div style=\"display: inline-block; background-color: #d9e0e7; padding: 6px; margin: 4px; border: 1px solid #8da1b4; border-radius: 5px; line-height: 60%\"><p style=\"margin-bottom: 0px\"/><p style=\"margin-bottom: 0px\">Profile: <a href=\"StructureDefinition-sensitive-medication-request-profile.html\">Sensitive Medication Request Profile</a></p></div><p><b>identifier</b>: <code>http://example.com/demo/medicationrequest-identifier</code>/RX-FLUOXETINE-45602</p><p><b>status</b>: Active</p><p><b>intent</b>: Order</p><p><b>medication</b>: <span title=\"Codes:{http://www.nlm.nih.gov/research/umls/rxnorm 315952}\">Fluoxetine 20 MG Oral Capsule</span></p><p><b>subject</b>: <a href=\"Patient-CarlFrederickson.html\">Carl Frederickson  Male, DoB: 1949-09-12</a></p><blockquote><p><b>dosageInstruction</b></p><p><b>text</b>: 20mg PO daily</p><p><b>timing</b>: Once per 1 day</p><p><b>route</b>: <span title=\"Codes:{http://snomed.info/sct 26643006}\">Oral route</span></p><h3>DoseAndRates</h3><table class=\"grid\"><tr><td style=\"display: none\">-</td><td><b>Dose[x]</b></td></tr><tr><td style=\"display: none\">*</td><td>20 mg<span style=\"background: LightGoldenRodYellow\"> (Details: UCUM  codemg = 'mg')</span></td></tr></table></blockquote></div>"
      },
      "identifier" : [{
        "system" : "http://example.com/demo/medicationrequest-identifier",
        "value" : "RX-FLUOXETINE-45602"
      }],
      "status" : "active",
      "intent" : "order",
      "medicationCodeableConcept" : {
        "coding" : [{
          "system" : "http://www.nlm.nih.gov/research/umls/rxnorm",
          "code" : "315952",
          "display" : "fluoxetine 20 MG"
        }],
        "text" : "Fluoxetine 20 MG Oral Capsule"
      },
      "subject" : {
        "reference" : "Patient/CarlFrederickson"
      },
      "dosageInstruction" : [{
        "text" : "20mg PO daily",
        "timing" : {
          "repeat" : {
            "frequency" : 1,
            "period" : 1,
            "periodUnit" : "d"
          }
        },
        "route" : {
          "coding" : [{
            "system" : "http://snomed.info/sct",
            "code" : "26643006",
            "display" : "Oral route"
          }]
        },
        "doseAndRate" : [{
          "doseQuantity" : {
            "value" : 20,
            "unit" : "mg",
            "system" : "http://unitsofmeasure.org",
            "code" : "mg"
          }
        }]
      }]
    }
  },
  {
    "fullUrl" : "http://example.org/fhir/Observation/CarlFredericksonBloodPressure",
    "resource" : {
      "resourceType" : "Observation",
      "id" : "CarlFredericksonBloodPressure",
      "text" : {
        "status" : "generated",
        "div" : "<div xmlns=\"http://www.w3.org/1999/xhtml\"><a name=\"Observation_CarlFredericksonBloodPressure\"> </a><p class=\"res-header-id\"><b>Generated Narrative: Observation CarlFredericksonBloodPressure</b></p><a name=\"CarlFredericksonBloodPressure\"> </a><a name=\"hcCarlFredericksonBloodPressure\"> </a><p><b>identifier</b>: <code>http://example.com/demo/observation-identifier</code>/BP-56783</p><p><b>status</b>: Final</p><p><b>category</b>: <span title=\"Codes:{http://terminology.hl7.org/CodeSystem/observation-category vital-signs}\">Vital Signs</span></p><p><b>code</b>: <span title=\"Codes:{http://snomed.info/sct 75367002}, {http://loinc.org 85354-9}\">Mapple Vitals - Blood pressure</span></p><p><b>subject</b>: <a href=\"Patient-CarlFrederickson.html\">Carl Frederickson  Male, DoB: 1949-09-12</a></p><p><b>effective</b>: 2023-08-15 09:30:00+0000</p><p><b>performer</b>: <a href=\"CareTeam-CarlFredericksonCareTeam.html\">CareTeam Carl Frederickson's Care Team</a></p><blockquote><p><b>component</b></p><p><b>code</b>: <span title=\"Codes:{http://loinc.org 8480-6}\">Systolic blood pressure</span></p><p><b>value</b>: 132 mm[Hg]<span style=\"background: LightGoldenRodYellow\"> (Details: UCUM  codemm[Hg] = 'mm[Hg]')</span></p></blockquote><blockquote><p><b>component</b></p><p><b>code</b>: <span title=\"Codes:{http://loinc.org 8462-4}\">Diastolic blood pressure</span></p><p><b>value</b>: 86 mm[Hg]<span style=\"background: LightGoldenRodYellow\"> (Details: UCUM  codemm[Hg] = 'mm[Hg]')</span></p></blockquote></div>"
      },
      "identifier" : [{
        "system" : "http://example.com/demo/observation-identifier",
        "value" : "BP-56783"
      }],
      "status" : "final",
      "category" : [{
        "coding" : [{
          "system" : "http://terminology.hl7.org/CodeSystem/observation-category",
          "code" : "vital-signs",
          "display" : "Vital Signs"
        }]
      }],
      "code" : {
        "coding" : [{
          "system" : "http://snomed.info/sct",
          "code" : "75367002",
          "display" : "Blood pressure (observable entity)"
        },
        {
          "system" : "http://loinc.org",
          "code" : "85354-9",
          "display" : "Blood pressure panel with all children optional"
        }],
        "text" : "Mapple Vitals - Blood pressure"
      },
      "subject" : {
        "reference" : "Patient/CarlFrederickson"
      },
      "effectiveDateTime" : "2023-08-15T09:30:00Z",
      "performer" : [{
        "reference" : "CareTeam/CarlFredericksonCareTeam"
      }],
      "component" : [{
        "code" : {
          "coding" : [{
            "system" : "http://loinc.org",
            "code" : "8480-6",
            "display" : "Systolic blood pressure"
          }]
        },
        "valueQuantity" : {
          "value" : 132,
          "unit" : "mm[Hg]",
          "system" : "http://unitsofmeasure.org",
          "code" : "mm[Hg]"
        }
      },
      {
        "code" : {
          "coding" : [{
            "system" : "http://loinc.org",
            "code" : "8462-4",
            "display" : "Diastolic blood pressure"
          }]
        },
        "valueQuantity" : {
          "value" : 86,
          "unit" : "mm[Hg]",
          "system" : "http://unitsofmeasure.org",
          "code" : "mm[Hg]"
        }
      }]
    }
  },
  {
    "fullUrl" : "http://example.org/fhir/Observation/CarlFredericksonOUDThoughtRecord",
    "resource" : {
      "resourceType" : "Observation",
      "id" : "CarlFredericksonOUDThoughtRecord",
      "meta" : {
        "profile" : ["http://SHIFT-Task-Force.github.io/demo-fhir-data/StructureDefinition/sensitive-observation-profile"]
      },
      "text" : {
        "status" : "generated",
        "div" : "<div xmlns=\"http://www.w3.org/1999/xhtml\"><a name=\"Observation_CarlFredericksonOUDThoughtRecord\"> </a><p class=\"res-header-id\"><b>Generated Narrative: Observation CarlFredericksonOUDThoughtRecord</b></p><a name=\"CarlFredericksonOUDThoughtRecord\"> </a><a name=\"hcCarlFredericksonOUDThoughtRecord\"> </a><div style=\"display: inline-block; background-color: #d9e0e7; padding: 6px; margin: 4px; border: 1px solid #8da1b4; border-radius: 5px; line-height: 60%\"><p style=\"margin-bottom: 0px\"/><p style=\"margin-bottom: 0px\">Profile: <a href=\"StructureDefinition-sensitive-observation-profile.html\">Sensitive Observation Profile</a></p></div><p><b>identifier</b>: <code>http://example.com/demo/observation-identifier</code>/OUDTR-56782</p><p><b>status</b>: Final</p><p><b>code</b>: <span title=\"Codes:{http://snomed.info/sct 444175001}\">Mapple CBT Tool - OUD self-help thought record</span></p><p><b>subject</b>: <a href=\"Patient-CarlFrederickson.html\">Carl Frederickson  Male, DoB: 1949-09-12</a></p><p><b>effective</b>: 2023-08-05 14:45:00+0000</p><p><b>performer</b>: <a href=\"Patient-CarlFrederickson.html\">Carl Frederickson  Male, DoB: 1949-09-12</a></p></div>"
      },
      "identifier" : [{
        "system" : "http://example.com/demo/observation-identifier",
        "value" : "OUDTR-56782"
      }],
      "status" : "final",
      "code" : {
        "coding" : [{
          "system" : "http://snomed.info/sct",
          "code" : "444175001",
          "display" : "Guided self-help cognitive behavioral therapy (regime/therapy)"
        }],
        "text" : "Mapple CBT Tool - OUD self-help thought record"
      },
      "subject" : {
        "reference" : "Patient/CarlFrederickson"
      },
      "effectiveDateTime" : "2023-08-05T14:45:00Z",
      "performer" : [{
        "reference" : "Patient/CarlFrederickson"
      }]
    }
  },
  {
    "fullUrl" : "http://example.org/fhir/RelatedPerson/EllieFrederickson",
    "resource" : {
      "resourceType" : "RelatedPerson",
      "id" : "EllieFrederickson",
      "text" : {
        "status" : "generated",
        "div" : "<div xmlns=\"http://www.w3.org/1999/xhtml\"><a name=\"RelatedPerson_EllieFrederickson\"> </a><p class=\"res-header-id\"><b>Generated Narrative: RelatedPerson EllieFrederickson</b></p><a name=\"EllieFrederickson\"> </a><a name=\"hcEllieFrederickson\"> </a><p><b>identifier</b>: <code>http://example.com/demo/relatedperson-identifier</code>/RP-56789</p><p><b>patient</b>: <a href=\"Patient-CarlFrederickson.html\">Carl Frederickson  Male, DoB: 1949-09-12</a></p><p><b>relationship</b>: <span title=\"Codes:{http://terminology.hl7.org/CodeSystem/v3-RoleCode WIFE}\">wife</span></p><p><b>name</b>: Ellie Frederickson </p></div>"
      },
      "identifier" : [{
        "system" : "http://example.com/demo/relatedperson-identifier",
        "value" : "RP-56789"
      }],
      "patient" : {
        "reference" : "Patient/CarlFrederickson"
      },
      "relationship" : [{
        "coding" : [{
          "system" : "http://terminology.hl7.org/CodeSystem/v3-RoleCode",
          "code" : "WIFE",
          "display" : "wife"
        }]
      }],
      "name" : [{
        "family" : "Frederickson",
        "given" : ["Ellie"]
      }]
    }
  }]
}